file name:  S2128_09_1_2_MPa_PXF440_220809_201.mat	date/time  02.09.22 11.42
sensor type:  s2128_09_1_2_mpa_pxf440_220809 
force time integral[N*s]:       391.755
pressure time integral [kPa*s]:      400.650
total time [secs]:  3.370	time per frame [secs]:  0.01000	scanning rate [Hz]:   100


time[secs]    	force[N]   	x[mm]     	y[mm] 	

     0.01000	  118.000	 55.00	145.00	
     0.02000	  117.500	 54.83	145.00	
     0.03000	  117.500	 54.83	145.00	
     0.04000	  118.500	 54.92	145.00	
     0.05000	  118.000	 55.00	145.00	
     0.06000	  117.500	 54.83	145.00	
     0.07000	  118.000	 54.75	145.00	
     0.08000	  117.500	 54.83	145.00	
     0.09000	  117.500	 54.83	145.00	
     0.10000	  118.000	 55.00	145.00	
     0.11000	  117.000	 54.74	145.00	
     0.12000	  117.500	 54.83	145.00	
     0.13000	  117.500	 54.83	145.00	
     0.14000	  117.500	 54.83	145.00	
     0.15000	  117.500	 54.83	145.00	
     0.16000	  117.500	 54.83	145.00	
     0.17000	  118.000	 55.00	145.00	
     0.18000	  117.500	 54.83	145.00	
     0.19000	  117.500	 54.83	145.00	
     0.20000	  118.500	 54.70	145.00	
     0.21000	  117.500	 54.83	145.00	
     0.22000	  117.500	 54.83	145.00	
     0.23000	  118.000	 54.75	145.00	
     0.24000	  117.500	 54.83	145.00	
     0.25000	  118.000	 54.79	145.00	
     0.26000	  117.500	 54.83	145.00	
     0.27000	  117.500	 54.83	145.00	
     0.28000	  117.500	 54.83	145.00	
     0.29000	  117.500	 54.83	145.00	
     0.30000	  117.500	 54.83	145.00	
     0.31000	  117.500	 54.83	145.00	
     0.32000	  117.500	 54.83	145.00	
     0.33000	  117.500	 54.83	145.00	
     0.34000	  117.500	 54.83	145.00	
     0.35000	  117.500	 54.83	145.00	
     0.36000	  118.000	 54.75	145.00	
     0.37000	  117.500	 54.83	145.00	
     0.38000	  117.500	 54.83	145.00	
     0.39000	  117.500	 54.83	145.00	
     0.40000	  117.000	 54.74	145.00	
     0.41000	  117.500	 54.83	145.00	
     0.42000	  117.500	 54.83	145.00	
     0.43000	  117.500	 54.83	145.00	
     0.44000	  117.500	 54.83	145.00	
     0.45000	  117.500	 54.83	145.00	
     0.46000	  118.000	 54.75	145.00	
     0.47000	  117.500	 54.83	145.00	
     0.48000	  117.500	 54.83	145.00	
     0.49000	  117.500	 54.83	145.00	
     0.50000	  117.500	 54.83	145.00	
     0.51000	  118.000	 54.75	145.00	
     0.52000	  117.500	 54.83	145.00	
     0.53000	  117.500	 54.83	145.00	
     0.54000	  117.500	 54.83	145.00	
     0.55000	  117.500	 54.83	145.00	
     0.56000	  117.500	 54.83	145.00	
     0.57000	  117.500	 54.83	145.00	
     0.58000	  118.000	 54.75	145.00	
     0.59000	  117.500	 54.83	145.00	
     0.60000	  118.000	 54.75	145.00	
     0.61000	  117.500	 54.83	145.00	
     0.62000	  117.500	 54.83	145.00	
     0.63000	  117.500	 54.83	145.00	
     0.64000	  117.000	 54.74	145.00	
     0.65000	  118.000	 54.75	145.00	
     0.66000	  118.000	 54.75	145.00	
     0.67000	  117.500	 54.83	145.00	
     0.68000	  118.000	 54.75	145.00	
     0.69000	  117.500	 54.83	145.00	
     0.70000	  117.500	 54.83	145.00	
     0.71000	  117.500	 54.83	145.00	
     0.72000	  117.000	 54.74	145.00	
     0.73000	  117.500	 54.83	145.00	
     0.74000	  118.000	 54.75	145.00	
     0.75000	  117.500	 54.83	145.00	
     0.76000	  117.500	 54.83	145.00	
     0.77000	  117.500	 54.83	145.00	
     0.78000	  117.500	 54.83	145.00	
     0.79000	  117.500	 54.83	145.00	
     0.80000	  117.000	 54.74	145.00	
     0.81000	  117.000	 54.74	145.00	
     0.82000	  117.500	 54.83	145.00	
     0.83000	  117.000	 54.74	145.00	
     0.84000	  117.500	 54.83	145.00	
     0.85000	  117.500	 54.83	145.00	
     0.86000	  118.000	 54.75	145.00	
     0.87000	  117.500	 54.83	145.00	
     0.88000	  117.500	 54.83	145.00	
     0.89000	  117.500	 54.83	145.00	
     0.90000	  117.500	 54.83	145.00	
     0.91000	  117.000	 54.74	145.00	
     0.92000	  117.000	 54.74	145.00	
     0.93000	  117.000	 54.74	145.00	
     0.94000	  117.000	 54.74	145.00	
     0.95000	  117.500	 54.83	145.00	
     0.96000	  117.500	 54.83	145.00	
     0.97000	  117.000	 54.74	145.00	
     0.98000	  117.000	 54.74	145.00	
     0.99000	  117.000	 54.74	145.00	
     1.00000	  117.500	 54.83	145.00	
     1.01000	  117.500	 54.83	145.00	
     1.02000	  117.000	 54.74	145.00	
     1.03000	  117.000	 54.96	145.00	
     1.04000	  117.500	 54.83	145.00	
     1.05000	  117.500	 54.83	145.00	
     1.06000	  117.000	 54.74	145.00	
     1.07000	  117.000	 54.74	145.00	
     1.08000	  117.000	 54.96	145.00	
     1.09000	  117.000	 54.96	145.00	
     1.10000	  117.500	 54.83	145.00	
     1.11000	  117.500	 54.83	145.00	
     1.12000	  117.000	 54.96	145.00	
     1.13000	  117.000	 54.74	145.00	
     1.14000	  117.500	 54.83	145.00	
     1.15000	  117.500	 54.83	145.00	
     1.16000	  117.000	 54.96	145.00	
     1.17000	  116.500	 54.87	145.00	
     1.18000	  117.000	 54.74	145.00	
     1.19000	  117.000	 54.74	145.00	
     1.20000	  117.000	 54.74	145.00	
     1.21000	  117.500	 54.83	145.00	
     1.22000	  117.000	 54.74	145.00	
     1.23000	  117.500	 54.83	145.00	
     1.24000	  117.000	 54.96	145.00	
     1.25000	  117.500	 54.83	145.00	
     1.26000	  116.500	 54.87	145.00	
     1.27000	  117.500	 54.83	145.00	
     1.28000	  117.500	 54.83	145.00	
     1.29000	  117.000	 54.74	145.00	
     1.30000	  117.500	 54.83	145.00	
     1.31000	  117.000	 54.74	145.00	
     1.32000	  117.000	 54.74	145.00	
     1.33000	  117.500	 54.83	145.00	
     1.34000	  117.000	 54.74	145.00	
     1.35000	  117.000	 54.74	145.00	
     1.36000	  117.500	 54.83	145.00	
     1.37000	  117.000	 54.74	145.00	
     1.38000	  117.500	 54.83	145.00	
     1.39000	  117.500	 54.83	145.00	
     1.40000	  116.500	 54.87	145.00	
     1.41000	  116.500	 54.87	145.00	
     1.42000	  116.500	 54.87	145.00	
     1.43000	  117.000	 54.74	145.00	
     1.44000	  117.000	 54.96	145.00	
     1.45000	  117.500	 54.83	145.00	
     1.46000	  116.500	 54.87	145.00	
     1.47000	  117.000	 54.96	145.00	
     1.48000	  117.000	 54.96	145.00	
     1.49000	  117.000	 54.74	145.00	
     1.50000	  117.500	 54.83	145.00	
     1.51000	  117.500	 54.83	145.00	
     1.52000	  117.000	 54.74	145.00	
     1.53000	  117.500	 54.83	145.00	
     1.54000	  117.500	 54.83	145.00	
     1.55000	  117.500	 54.83	145.00	
     1.56000	  117.500	 54.83	145.00	
     1.57000	  116.500	 54.87	145.00	
     1.58000	  117.000	 54.74	145.00	
     1.59000	  117.000	 54.96	145.00	
     1.60000	  117.000	 54.74	145.00	
     1.61000	  117.000	 54.74	145.00	
     1.62000	  117.000	 54.74	145.00	
     1.63000	  117.000	 54.74	145.00	
     1.64000	  117.500	 54.83	145.00	
     1.65000	  117.500	 54.83	145.00	
     1.66000	  117.000	 54.74	145.00	
     1.67000	  117.000	 54.74	145.00	
     1.68000	  117.500	 54.83	145.00	
     1.69000	  117.000	 54.74	145.00	
     1.70000	  117.000	 54.74	145.00	
     1.71000	  117.000	 54.74	145.00	
     1.72000	  117.000	 54.74	145.00	
     1.73000	  117.000	 54.74	145.00	
     1.74000	  117.000	 54.74	145.00	
     1.75000	  117.000	 54.74	145.00	
     1.76000	  117.000	 54.74	145.00	
     1.77000	  117.000	 54.74	145.00	
     1.78000	  117.000	 54.74	145.00	
     1.79000	  117.000	 54.74	145.00	
     1.80000	  116.500	 54.87	145.00	
     1.81000	  116.000	 55.09	145.00	
     1.82000	  117.000	 54.96	145.00	
     1.83000	  117.000	 54.74	145.00	
     1.84000	  117.000	 54.74	145.00	
     1.85000	  116.500	 54.87	145.00	
     1.86000	  116.500	 54.87	145.00	
     1.87000	  116.000	 55.09	145.00	
     1.88000	  117.000	 54.74	145.00	
     1.89000	  117.000	 54.96	145.00	
     1.90000	  117.000	 54.74	145.00	
     1.91000	  117.000	 54.74	145.00	
     1.92000	  116.500	 54.87	145.00	
     1.93000	  116.500	 54.87	145.00	
     1.94000	  117.000	 54.74	145.00	
     1.95000	  116.000	 54.66	145.00	
     1.96000	  116.500	 54.74	145.00	
     1.97000	  117.000	 54.96	145.00	
     1.98000	  116.000	 54.74	145.00	
     1.99000	  116.500	 54.87	145.00	
     2.00000	  115.500	 54.87	145.00	
     2.01000	  117.000	 54.74	145.00	
     2.02000	  117.000	 54.74	145.00	
     2.03000	  117.000	 54.74	145.00	
     2.04000	  116.500	 54.87	145.00	
     2.05000	  116.500	 54.87	145.00	
     2.06000	  116.500	 54.87	145.00	
     2.07000	  116.500	 54.96	145.00	
     2.08000	  116.500	 54.87	145.00	
     2.09000	  116.500	 54.87	145.00	
     2.10000	  116.500	 54.87	145.00	
     2.11000	  116.500	 54.87	145.00	
     2.12000	  116.000	 54.74	145.00	
     2.13000	  116.500	 54.87	145.00	
     2.14000	  116.500	 54.87	145.00	
     2.15000	  116.500	 54.87	145.00	
     2.16000	  117.000	 54.74	145.00	
     2.17000	  115.500	 54.87	145.00	
     2.18000	  116.500	 54.87	145.00	
     2.19000	  116.500	 54.87	145.00	
     2.20000	  116.000	 54.74	145.00	
     2.21000	  116.500	 54.87	145.00	
     2.22000	  115.500	 54.52	145.00	
     2.23000	  116.000	 54.66	145.00	
     2.24000	  116.000	 55.09	145.00	
     2.25000	  116.500	 54.87	145.00	
     2.26000	  115.500	 54.87	145.00	
     2.27000	  116.000	 54.66	145.00	
     2.28000	  115.500	 54.87	145.00	
     2.29000	  116.000	 54.66	145.00	
     2.30000	  115.500	 54.52	145.00	
     2.31000	  115.000	 54.74	145.00	
     2.32000	  116.000	 54.66	145.00	
     2.33000	  115.500	 54.52	145.00	
     2.34000	  115.500	 54.52	145.00	
     2.35000	  116.000	 55.09	145.00	
     2.36000	  115.500	 54.52	145.00	
     2.37000	  116.500	 54.87	145.00	
     2.38000	  116.500	 54.87	145.00	
     2.39000	  115.500	 54.87	145.00	
     2.40000	  115.500	 54.52	145.00	
     2.41000	  115.000	 54.74	145.00	
     2.42000	  115.500	 54.52	145.00	
     2.43000	  115.500	 54.52	145.00	
     2.44000	  115.500	 54.52	145.00	
     2.45000	  115.500	 54.52	145.00	
     2.46000	  115.500	 54.52	145.00	
     2.47000	  115.500	 54.52	145.00	
     2.48000	  115.500	 54.52	145.00	
     2.49000	  116.000	 54.66	145.00	
     2.50000	  115.000	 54.74	145.00	
     2.51000	  115.000	 54.70	145.00	
     2.52000	  115.500	 54.52	145.00	
     2.53000	  116.000	 54.66	145.00	
     2.54000	  115.500	 54.52	145.00	
     2.55000	  116.000	 54.66	145.00	
     2.56000	  115.000	 54.74	145.00	
     2.57000	  115.500	 54.52	145.00	
     2.58000	  114.500	 54.91	145.00	
     2.59000	  115.000	 54.74	145.00	
     2.60000	  115.000	 54.70	145.00	
     2.61000	  116.000	 54.66	145.00	
     2.62000	  115.000	 54.70	145.00	
     2.63000	  114.500	 54.91	145.00	
     2.64000	  114.500	 54.91	145.00	
     2.65000	  115.000	 54.52	145.00	
     2.66000	  115.500	 54.52	145.00	
     2.67000	  115.000	 54.70	145.00	
     2.68000	  115.000	 54.74	145.00	
     2.69000	  114.500	 54.91	145.00	
     2.70000	  114.500	 54.91	145.00	
     2.71000	  114.000	 54.91	145.00	
     2.72000	  114.000	 54.91	145.00	
     2.73000	  114.000	 54.91	145.00	
     2.74000	  114.500	 54.91	145.00	
     2.75000	  114.500	 54.91	145.00	
     2.76000	  115.000	 54.74	145.00	
     2.77000	  114.000	 54.91	145.00	
     2.78000	  114.500	 54.91	145.00	
     2.79000	  114.000	 54.91	145.00	
     2.80000	  114.000	 54.91	145.00	
     2.81000	  114.000	 54.91	145.00	
     2.82000	  114.500	 54.69	145.00	
     2.83000	  114.000	 54.91	145.00	
     2.84000	  114.000	 54.91	145.00	
     2.85000	  114.000	 54.91	145.00	
     2.86000	  114.000	 54.91	145.00	
     2.87000	  114.000	 54.91	145.00	
     2.88000	  114.000	 54.91	145.00	
     2.89000	  114.000	 54.91	145.00	
     2.90000	  114.000	 54.91	145.00	
     2.91000	  114.000	 54.91	145.00	
     2.92000	  114.000	 54.91	145.00	
     2.93000	  114.000	 54.91	145.00	
     2.94000	  114.000	 54.91	145.00	
     2.95000	  114.000	 54.91	145.00	
     2.96000	  114.000	 54.91	145.00	
     2.97000	  114.000	 54.91	145.00	
     2.98000	  114.000	 54.91	145.00	
     2.99000	  113.500	 54.87	145.00	
     3.00000	  114.000	 54.91	145.00	
     3.01000	  114.000	 54.91	145.00	
     3.02000	  114.000	 54.91	145.00	
     3.03000	  113.500	 54.87	145.00	
     3.04000	  113.500	 54.87	145.00	
     3.05000	  113.500	 54.87	145.00	
     3.06000	  113.500	 54.87	145.00	
     3.07000	  113.500	 54.87	145.00	
     3.08000	  113.500	 54.87	145.00	
     3.09000	  113.500	 54.87	145.00	
     3.10000	  114.000	 54.91	145.00	
     3.11000	  113.500	 54.87	145.00	
     3.12000	  113.500	 54.87	145.00	
     3.13000	  113.500	 54.87	145.00	
     3.14000	  114.000	 54.91	145.00	
     3.15000	  113.500	 54.87	145.00	
     3.16000	  113.500	 54.87	145.00	
     3.17000	  114.000	 54.91	145.00	
     3.18000	  113.500	 54.87	145.00	
     3.19000	  114.000	 54.91	145.00	
     3.20000	  113.500	 54.87	145.00	
     3.21000	  113.500	 54.87	145.00	
     3.22000	  113.500	 54.87	145.00	
     3.23000	  113.500	 54.87	145.00	
     3.24000	  113.000	 54.65	145.00	
     3.25000	  113.500	 54.87	145.00	
     3.26000	  113.500	 54.87	145.00	
     3.27000	  113.500	 54.87	145.00	
     3.28000	  113.500	 54.87	145.00	
     3.29000	  112.500	 54.51	145.00	
     3.30000	  113.000	 54.65	145.00	
     3.31000	  113.000	 54.65	145.00	
     3.32000	  113.500	 54.87	145.00	
     3.33000	  112.500	 54.51	145.00	
     3.34000	  112.000	 54.33	145.00	
     3.35000	  112.500	 54.51	145.00	
     3.36000	  112.500	 54.51	145.00	
     3.37000	  113.000	 54.65	145.00	
