file name:  S2128_09_1_2_MPa_PXF440_220809_157.mat	date/time  03.09.22 10.42
sensor type:  s2128_09_1_2_mpa_pxf440_220809 
force time integral[N*s]:      1414.485
pressure time integral [kPa*s]:     1077.200
total time [secs]:  8.020	time per frame [secs]:  0.01000	scanning rate [Hz]:   100


time[secs]    	force[N]   	x[mm]     	y[mm] 	

     0.01000	  141.500	 55.04	145.00	
     0.02000	  141.000	 54.89	145.00	
     0.03000	  141.000	 54.89	145.00	
     0.04000	  140.500	 55.28	145.00	
     0.05000	  140.000	 55.11	145.00	
     0.06000	  141.000	 55.21	145.00	
     0.07000	  140.000	 55.00	145.00	
     0.08000	  140.500	 55.25	145.00	
     0.09000	  141.000	 55.07	145.00	
     0.10000	  141.000	 55.07	145.00	
     0.11000	  140.000	 55.00	145.00	
     0.12000	  140.500	 54.93	145.00	
     0.13000	  140.500	 54.93	145.00	
     0.14000	  141.000	 55.07	145.00	
     0.15000	  140.500	 54.93	145.00	
     0.16000	  140.500	 54.93	145.00	
     0.17000	  140.000	 55.11	145.00	
     0.18000	  141.000	 55.07	145.00	
     0.19000	  140.500	 54.93	145.00	
     0.20000	  141.000	 55.21	145.00	
     0.21000	  140.500	 54.93	145.00	
     0.22000	  141.000	 55.07	145.00	
     0.23000	  141.000	 55.07	145.00	
     0.24000	  141.000	 55.07	145.00	
     0.25000	  141.000	 55.07	145.00	
     0.26000	  141.000	 55.07	145.00	
     0.27000	  141.000	 55.07	145.00	
     0.28000	  140.500	 54.93	145.00	
     0.29000	  140.500	 55.25	145.00	
     0.30000	  141.000	 55.07	145.00	
     0.31000	  141.000	 55.07	145.00	
     0.32000	  141.500	 55.04	145.00	
     0.33000	  140.500	 54.93	145.00	
     0.34000	  140.500	 54.93	145.00	
     0.35000	  141.500	 55.04	145.00	
     0.36000	  140.000	 55.11	145.00	
     0.37000	  140.500	 55.25	145.00	
     0.38000	  140.500	 54.93	145.00	
     0.39000	  140.500	 54.93	145.00	
     0.40000	  140.000	 55.11	145.00	
     0.41000	  140.500	 54.93	145.00	
     0.42000	  140.500	 54.93	145.00	
     0.43000	  140.500	 54.93	145.00	
     0.44000	  140.500	 55.25	145.00	
     0.45000	  141.500	 55.04	145.00	
     0.46000	  140.500	 55.07	145.00	
     0.47000	  141.000	 55.07	145.00	
     0.48000	  140.500	 54.93	145.00	
     0.49000	  141.500	 55.04	145.00	
     0.50000	  140.500	 55.25	145.00	
     0.51000	  140.500	 55.14	145.00	
     0.52000	  141.500	 55.04	145.00	
     0.53000	  141.000	 55.07	145.00	
     0.54000	  140.500	 54.93	145.00	
     0.55000	  141.500	 55.04	145.00	
     0.56000	  141.000	 55.07	145.00	
     0.57000	  140.500	 54.93	145.00	
     0.58000	  140.500	 54.93	145.00	
     0.59000	  140.000	 55.11	145.00	
     0.60000	  141.000	 55.07	145.00	
     0.61000	  140.000	 55.11	145.00	
     0.62000	  141.000	 55.07	145.00	
     0.63000	  140.500	 55.25	145.00	
     0.64000	  140.000	 55.00	145.00	
     0.65000	  141.000	 54.89	145.00	
     0.66000	  140.500	 54.93	145.00	
     0.67000	  141.000	 55.07	145.00	
     0.68000	  140.000	 55.11	145.00	
     0.69000	  141.500	 55.04	145.00	
     0.70000	  140.500	 54.93	145.00	
     0.71000	  140.500	 55.25	145.00	
     0.72000	  141.500	 55.04	145.00	
     0.73000	  140.500	 54.93	145.00	
     0.74000	  141.000	 54.89	145.00	
     0.75000	  140.500	 54.93	145.00	
     0.76000	  141.000	 55.07	145.00	
     0.77000	  140.500	 54.93	145.00	
     0.78000	  141.000	 55.07	145.00	
     0.79000	  141.500	 55.04	145.00	
     0.80000	  141.000	 55.07	145.00	
     0.81000	  141.500	 55.04	145.00	
     0.82000	  140.500	 54.93	145.00	
     0.83000	  141.000	 55.07	145.00	
     0.84000	  141.000	 54.89	145.00	
     0.85000	  141.000	 55.07	145.00	
     0.86000	  140.500	 54.93	145.00	
     0.87000	  140.500	 54.93	145.00	
     0.88000	  140.500	 55.07	145.00	
     0.89000	  141.000	 55.07	145.00	
     0.90000	  141.000	 54.89	145.00	
     0.91000	  140.500	 54.93	145.00	
     0.92000	  141.000	 55.07	145.00	
     0.93000	  140.500	 55.07	145.00	
     0.94000	  141.500	 55.04	145.00	
     0.95000	  140.500	 55.14	145.00	
     0.96000	  140.500	 55.25	145.00	
     0.97000	  141.000	 54.89	145.00	
     0.98000	  140.500	 54.93	145.00	
     0.99000	  140.500	 54.93	145.00	
     1.00000	  141.000	 54.89	145.00	
     1.01000	  141.000	 55.07	145.00	
     1.02000	  141.000	 54.89	145.00	
     1.03000	  141.000	 55.07	145.00	
     1.04000	  140.000	 55.11	145.00	
     1.05000	  140.500	 54.93	145.00	
     1.06000	  140.500	 54.93	145.00	
     1.07000	  141.000	 55.07	145.00	
     1.08000	  141.000	 55.21	145.00	
     1.09000	  140.500	 54.93	145.00	
     1.10000	  141.000	 55.07	145.00	
     1.11000	  140.500	 54.93	145.00	
     1.12000	  140.500	 55.25	145.00	
     1.13000	  141.500	 55.04	145.00	
     1.14000	  141.000	 55.07	145.00	
     1.15000	  140.500	 55.07	145.00	
     1.16000	  141.000	 55.07	145.00	
     1.17000	  140.500	 54.93	145.00	
     1.18000	  140.000	 55.11	145.00	
     1.19000	  140.500	 55.25	145.00	
     1.20000	  140.500	 54.93	145.00	
     1.21000	  140.500	 54.93	145.00	
     1.22000	  140.500	 55.25	145.00	
     1.23000	  140.500	 54.93	145.00	
     1.24000	  140.500	 54.93	145.00	
     1.25000	  141.000	 55.07	145.00	
     1.26000	  140.500	 55.25	145.00	
     1.27000	  141.000	 54.89	145.00	
     1.28000	  140.500	 54.96	145.00	
     1.29000	  141.000	 55.07	145.00	
     1.30000	  141.000	 55.07	145.00	
     1.31000	  140.000	 55.00	145.00	
     1.32000	  141.500	 55.04	145.00	
     1.33000	  140.500	 54.96	145.00	
     1.34000	  141.000	 55.07	145.00	
     1.35000	  141.000	 55.07	145.00	
     1.36000	  140.000	 55.11	145.00	
     1.37000	  141.500	 55.04	145.00	
     1.38000	  140.000	 55.11	145.00	
     1.39000	  140.500	 54.93	145.00	
     1.40000	  141.000	 54.89	145.00	
     1.41000	  141.500	 55.04	145.00	
     1.42000	  141.000	 54.89	145.00	
     1.43000	  141.500	 55.04	145.00	
     1.44000	  140.500	 54.93	145.00	
     1.45000	  141.000	 55.07	145.00	
     1.46000	  140.500	 54.93	145.00	
     1.47000	  141.500	 55.04	145.00	
     1.48000	  141.000	 55.07	145.00	
     1.49000	  141.500	 55.04	145.00	
     1.50000	  141.000	 54.89	145.00	
     1.51000	  141.000	 54.89	145.00	
     1.52000	  140.500	 54.93	145.00	
     1.53000	  140.000	 55.11	145.00	
     1.54000	  141.000	 55.07	145.00	
     1.55000	  140.500	 54.93	145.00	
     1.56000	  141.500	 55.04	145.00	
     1.57000	  140.500	 54.93	145.00	
     1.58000	  140.500	 54.93	145.00	
     1.59000	  139.500	 55.18	145.00	
     1.60000	  141.000	 54.89	145.00	
     1.61000	  140.500	 54.93	145.00	
     1.62000	  141.000	 55.07	145.00	
     1.63000	  140.500	 54.93	145.00	
     1.64000	  141.000	 55.07	145.00	
     1.65000	  141.000	 54.89	145.00	
     1.66000	  140.500	 54.93	145.00	
     1.67000	  140.500	 55.07	145.00	
     1.68000	  141.500	 55.04	145.00	
     1.69000	  141.000	 54.89	145.00	
     1.70000	  141.000	 55.07	145.00	
     1.71000	  141.500	 55.04	145.00	
     1.72000	  140.500	 54.93	145.00	
     1.73000	  140.500	 54.93	145.00	
     1.74000	  141.500	 55.04	145.00	
     1.75000	  140.500	 54.93	145.00	
     1.76000	  140.500	 54.93	145.00	
     1.77000	  141.000	 55.11	145.00	
     1.78000	  140.500	 55.25	145.00	
     1.79000	  140.500	 55.25	145.00	
     1.80000	  141.000	 55.07	145.00	
     1.81000	  141.000	 55.07	145.00	
     1.82000	  141.000	 55.07	145.00	
     1.83000	  140.500	 55.07	145.00	
     1.84000	  141.000	 54.89	145.00	
     1.85000	  140.500	 55.25	145.00	
     1.86000	  140.500	 54.93	145.00	
     1.87000	  140.500	 54.93	145.00	
     1.88000	  140.500	 55.25	145.00	
     1.89000	  140.500	 54.93	145.00	
     1.90000	  140.500	 54.96	145.00	
     1.91000	  140.000	 55.11	145.00	
     1.92000	  140.500	 54.93	145.00	
     1.93000	  140.500	 54.93	145.00	
     1.94000	  140.500	 54.93	145.00	
     1.95000	  141.000	 55.07	145.00	
     1.96000	  141.000	 55.07	145.00	
     1.97000	  140.500	 54.93	145.00	
     1.98000	  141.000	 55.07	145.00	
     1.99000	  140.500	 55.25	145.00	
     2.00000	  141.000	 55.07	145.00	
     2.01000	  140.000	 55.11	145.00	
     2.02000	  141.000	 55.07	145.00	
     2.03000	  141.000	 55.07	145.00	
     2.04000	  140.000	 55.11	145.00	
     2.05000	  140.500	 54.93	145.00	
     2.06000	  140.000	 55.11	145.00	
     2.07000	  140.000	 55.11	145.00	
     2.08000	  140.500	 55.25	145.00	
     2.09000	  140.500	 55.25	145.00	
     2.10000	  140.500	 54.93	145.00	
     2.11000	  141.000	 54.89	145.00	
     2.12000	  141.000	 54.89	145.00	
     2.13000	  140.500	 55.25	145.00	
     2.14000	  140.500	 54.93	145.00	
     2.15000	  141.000	 55.07	145.00	
     2.16000	  140.500	 54.93	145.00	
     2.17000	  140.500	 54.93	145.00	
     2.18000	  141.000	 54.89	145.00	
     2.19000	  141.000	 55.07	145.00	
     2.20000	  141.000	 55.07	145.00	
     2.21000	  140.500	 55.25	145.00	
     2.22000	  141.000	 55.07	145.00	
     2.23000	  140.500	 54.93	145.00	
     2.24000	  141.000	 55.07	145.00	
     2.25000	  140.500	 55.25	145.00	
     2.26000	  141.500	 55.04	145.00	
     2.27000	  140.000	 55.11	145.00	
     2.28000	  141.000	 55.07	145.00	
     2.29000	  140.000	 55.11	145.00	
     2.30000	  141.000	 54.89	145.00	
     2.31000	  140.500	 55.25	145.00	
     2.32000	  140.500	 54.93	145.00	
     2.33000	  140.500	 54.93	145.00	
     2.34000	  141.000	 55.07	145.00	
     2.35000	  140.000	 55.11	145.00	
     2.36000	  141.000	 54.89	145.00	
     2.37000	  140.500	 55.28	145.00	
     2.38000	  141.000	 55.07	145.00	
     2.39000	  141.500	 55.04	145.00	
     2.40000	  140.500	 54.93	145.00	
     2.41000	  140.500	 54.93	145.00	
     2.42000	  141.000	 55.07	145.00	
     2.43000	  141.000	 54.89	145.00	
     2.44000	  140.500	 54.93	145.00	
     2.45000	  140.500	 55.25	145.00	
     2.46000	  140.500	 55.25	145.00	
     2.47000	  140.500	 54.93	145.00	
     2.48000	  140.500	 54.93	145.00	
     2.49000	  140.000	 55.11	145.00	
     2.50000	  141.000	 55.07	145.00	
     2.51000	  140.500	 55.25	145.00	
     2.52000	  141.000	 54.89	145.00	
     2.53000	  141.000	 55.07	145.00	
     2.54000	  141.500	 55.04	145.00	
     2.55000	  140.500	 54.93	145.00	
     2.56000	  141.000	 55.07	145.00	
     2.57000	  140.500	 54.93	145.00	
     2.58000	  141.000	 55.07	145.00	
     2.59000	  140.500	 54.93	145.00	
     2.60000	  141.500	 55.04	145.00	
     2.61000	  140.500	 54.93	145.00	
     2.62000	  140.500	 54.93	145.00	
     2.63000	  141.000	 55.07	145.00	
     2.64000	  141.000	 54.89	145.00	
     2.65000	  140.500	 54.93	145.00	
     2.66000	  140.000	 55.11	145.00	
     2.67000	  140.500	 54.93	145.00	
     2.68000	  140.500	 54.93	145.00	
     2.69000	  140.500	 54.93	145.00	
     2.70000	  141.000	 55.07	145.00	
     2.71000	  140.500	 54.93	145.00	
     2.72000	  141.000	 54.89	145.00	
     2.73000	  140.000	 55.11	145.00	
     2.74000	  141.000	 54.89	145.00	
     2.75000	  140.500	 54.93	145.00	
     2.76000	  141.000	 55.07	145.00	
     2.77000	  141.500	 55.04	145.00	
     2.78000	  140.500	 55.25	145.00	
     2.79000	  140.500	 54.93	145.00	
     2.80000	  140.500	 54.93	145.00	
     2.81000	  141.000	 55.07	145.00	
     2.82000	  140.500	 54.93	145.00	
     2.83000	  140.500	 55.25	145.00	
     2.84000	  140.500	 55.25	145.00	
     2.85000	  141.000	 55.07	145.00	
     2.86000	  140.000	 55.11	145.00	
     2.87000	  141.500	 55.04	145.00	
     2.88000	  141.000	 55.07	145.00	
     2.89000	  140.500	 55.14	145.00	
     2.90000	  141.500	 55.04	145.00	
     2.91000	  141.500	 55.04	145.00	
     2.92000	  140.500	 54.93	145.00	
     2.93000	  140.000	 55.11	145.00	
     2.94000	  141.000	 55.07	145.00	
     2.95000	  141.500	 55.04	145.00	
     2.96000	  140.500	 54.93	145.00	
     2.97000	  140.500	 54.93	145.00	
     2.98000	  141.000	 55.21	145.00	
     2.99000	  141.000	 54.89	145.00	
     3.00000	  141.000	 55.07	145.00	
     3.01000	  141.500	 55.04	145.00	
     3.02000	  141.000	 54.89	145.00	
     3.03000	  140.500	 55.25	145.00	
     3.04000	  140.500	 55.25	145.00	
     3.05000	  141.500	 55.04	145.00	
     3.06000	  140.500	 54.93	145.00	
     3.07000	  141.000	 55.07	145.00	
     3.08000	  141.000	 55.07	145.00	
     3.09000	  141.000	 54.89	145.00	
     3.10000	  141.000	 54.89	145.00	
     3.11000	  141.000	 54.89	145.00	
     3.12000	  141.000	 55.07	145.00	
     3.13000	  141.500	 55.04	145.00	
     3.14000	  140.500	 55.07	145.00	
     3.15000	  141.000	 54.89	145.00	
     3.16000	  141.500	 55.04	145.00	
     3.17000	  141.000	 55.07	145.00	
     3.18000	  141.000	 55.07	145.00	
     3.19000	  140.500	 54.93	145.00	
     3.20000	  141.500	 55.04	145.00	
     3.21000	  141.500	 55.04	145.00	
     3.22000	  141.500	 55.04	145.00	
     3.23000	  141.000	 54.89	145.00	
     3.24000	  140.500	 54.93	145.00	
     3.25000	  141.500	 55.04	145.00	
     3.26000	  141.000	 54.89	145.00	
     3.27000	  140.500	 54.93	145.00	
     3.28000	  140.500	 55.25	145.00	
     3.29000	  140.000	 55.11	145.00	
     3.30000	  140.500	 55.25	145.00	
     3.31000	  140.500	 55.07	145.00	
     3.32000	  141.000	 55.07	145.00	
     3.33000	  141.500	 55.04	145.00	
     3.34000	  141.500	 55.04	145.00	
     3.35000	  140.000	 55.11	145.00	
     3.36000	  141.000	 55.07	145.00	
     3.37000	  141.000	 55.07	145.00	
     3.38000	  140.500	 54.93	145.00	
     3.39000	  140.500	 55.25	145.00	
     3.40000	  141.000	 55.07	145.00	
     3.41000	  141.000	 54.89	145.00	
     3.42000	  141.000	 55.07	145.00	
     3.43000	  141.000	 55.07	145.00	
     3.44000	  140.000	 55.11	145.00	
     3.45000	  141.000	 55.07	145.00	
     3.46000	  141.500	 55.04	145.00	
     3.47000	  141.000	 54.89	145.00	
     3.48000	  140.500	 54.93	145.00	
     3.49000	  141.500	 55.04	145.00	
     3.50000	  141.000	 54.89	145.00	
     3.51000	  140.500	 54.93	145.00	
     3.52000	  141.500	 55.04	145.00	
     3.53000	  140.500	 55.25	145.00	
     3.54000	  141.500	 55.04	145.00	
     3.55000	  141.000	 55.21	145.00	
     3.56000	  142.000	 55.11	145.00	
     3.57000	  142.500	 55.56	145.00	
     3.58000	  143.000	 55.38	145.00	
     3.59000	  143.000	 55.56	145.00	
     3.60000	  143.500	 55.52	145.00	
     3.61000	  143.000	 55.56	145.00	
     3.62000	  143.500	 55.66	145.00	
     3.63000	  144.500	 55.80	145.00	
     3.64000	  144.500	 55.80	145.00	
     3.65000	  144.000	 55.83	145.00	
     3.66000	  143.500	 55.87	145.00	
     3.67000	  144.500	 55.80	145.00	
     3.68000	  143.500	 55.66	145.00	
     3.69000	  144.000	 55.63	145.00	
     3.70000	  143.000	 55.56	145.00	
     3.71000	  143.000	 55.38	145.00	
     3.72000	  142.000	 55.60	145.00	
     3.73000	  143.000	 55.38	145.00	
     3.74000	  141.500	 55.14	145.00	
     3.75000	  141.500	 55.04	145.00	
     3.76000	  141.000	 55.07	145.00	
     3.77000	  140.500	 55.25	145.00	
     3.78000	  141.500	 55.04	145.00	
     3.79000	  141.000	 55.07	145.00	
     3.80000	  140.500	 55.25	145.00	
     3.81000	  140.500	 55.25	145.00	
     3.82000	  141.000	 55.21	145.00	
     3.83000	  141.000	 55.21	145.00	
     3.84000	  141.000	 55.21	145.00	
     3.85000	  141.500	 55.04	145.00	
     3.86000	  141.000	 55.07	145.00	
     3.87000	    0.000	  0.00	  0.00	
     3.88000	    0.000	  0.00	  0.00	
     3.89000	    0.000	  0.00	  0.00	
     3.90000	    0.000	  0.00	  0.00	
     3.91000	  142.000	 54.79	145.00	
     3.92000	    0.000	  0.00	  0.00	
     3.93000	    8.000	 93.75	145.00	
     3.94000	  142.500	 54.75	145.00	
     3.95000	  143.000	 54.83	145.00	
     3.96000	  143.000	 54.58	145.00	
     3.97000	  142.500	 54.44	145.00	
     3.98000	  143.000	 54.58	145.00	
     3.99000	  143.000	 54.58	145.00	
     4.00000	  142.500	 54.44	145.00	
     4.01000	  142.500	 54.44	145.00	
     4.02000	  142.500	 54.44	145.00	
     4.03000	  142.500	 54.44	145.00	
     4.04000	  142.500	 54.44	145.00	
     4.05000	  143.000	 54.58	145.00	
     4.06000	  142.500	 54.44	145.00	
     4.07000	  142.500	 54.44	145.00	
     4.08000	  142.500	 54.44	145.00	
     4.09000	  142.500	 54.44	145.00	
     4.10000	  139.500	 54.39	145.00	
     4.11000	    0.000	  0.00	  0.00	
     4.12000	    0.000	  0.00	  0.00	
     4.13000	    0.000	  0.00	  0.00	
     4.14000	    0.000	  0.00	  0.00	
     4.15000	    0.000	  0.00	  0.00	
     4.16000	    0.000	  0.00	  0.00	
     4.17000	    2.000	 65.00	 85.00	
     4.18000	    4.000	 65.00	 80.00	
     4.19000	    4.000	 65.00	 80.00	
     4.20000	    4.000	 65.00	 80.00	
     4.21000	    4.500	 65.00	 80.56	
     4.22000	    4.500	 65.00	 80.56	
     4.23000	    6.500	 61.92	 81.92	
     4.24000	    6.000	 61.67	 81.67	
     4.25000	    6.000	 58.33	 91.67	
     4.26000	    4.000	 65.00	 80.00	
     4.27000	    6.500	 57.31	 89.62	
     4.28000	    6.500	 57.31	 89.62	
     4.29000	    7.000	 56.43	 90.71	
     4.30000	    7.000	 39.29	 99.29	
     4.31000	    7.500	 39.67	 99.67	
     4.32000	    9.500	 45.00	 94.47	
     4.33000	    9.500	 45.00	 94.47	
     4.34000	    7.500	 39.67	 99.67	
     4.35000	   10.500	 37.38	106.90	
     4.36000	    8.500	 30.88	105.00	
     4.37000	   11.000	 37.73	106.82	
     4.38000	   11.000	 37.73	106.82	
     4.39000	    8.500	 30.88	105.00	
     4.40000	    8.500	 30.88	105.00	
     4.41000	    8.000	 30.00	105.00	
     4.42000	    8.000	 30.00	105.00	
     4.43000	    7.500	 29.00	105.00	
     4.44000	  149.000	 53.59	142.99	
     4.45000	  148.500	 53.75	143.25	
     4.46000	  148.500	 53.69	143.25	
     4.47000	  143.000	 54.06	142.76	
     4.48000	  148.000	 53.48	143.38	
     4.49000	    6.000	 41.67	111.67	
     4.50000	    6.000	 41.67	111.67	
     4.51000	    6.000	 41.67	111.67	
     4.52000	    4.000	 40.00	115.00	
     4.53000	    2.000	 35.00	115.00	
     4.54000	    2.000	 35.00	115.00	
     4.55000	    0.000	  0.00	  0.00	
     4.56000	    0.000	  0.00	  0.00	
     4.57000	  143.500	 54.23	145.00	
     4.58000	  143.000	 54.27	145.00	
     4.59000	  143.500	 54.20	145.00	
     4.60000	  143.500	 54.20	145.00	
     4.61000	  143.500	 54.20	145.00	
     4.62000	    0.000	  0.00	  0.00	
     4.63000	    0.000	  0.00	  0.00	
     4.64000	    0.000	  0.00	  0.00	
     4.65000	    0.000	  0.00	  0.00	
     4.66000	    0.000	  0.00	  0.00	
     4.67000	    0.000	  0.00	  0.00	
     4.68000	    0.000	  0.00	  0.00	
     4.69000	    0.000	  0.00	  0.00	
     4.70000	    0.000	  0.00	  0.00	
     4.71000	   10.000	 40.00	145.00	
     4.72000	    0.000	  0.00	  0.00	
     4.73000	    0.000	  0.00	  0.00	
     4.74000	    2.000	 35.00	105.00	
     4.75000	    2.000	 35.00	105.00	
     4.76000	    2.000	 35.00	105.00	
     4.77000	    2.000	 35.00	105.00	
     4.78000	    4.000	 50.00	115.00	
     4.79000	    4.000	 50.00	115.00	
     4.80000	    4.000	 50.00	115.00	
     4.81000	    6.000	 65.00	118.33	
     4.82000	    6.000	 65.00	118.33	
     4.83000	    6.000	 85.00	128.33	
     4.84000	    4.500	 81.67	125.00	
     4.85000	    6.500	 67.31	118.85	
     4.86000	    6.500	 67.31	118.85	
     4.87000	  154.000	 56.04	143.12	
     4.88000	  151.500	 55.76	143.42	
     4.89000	  153.500	 56.24	143.18	
     4.90000	  155.000	 56.29	142.81	
     4.91000	  154.500	 56.33	142.80	
     4.92000	  159.000	 56.64	141.92	
     4.93000	  162.500	 56.91	141.12	
     4.94000	  162.500	 56.75	141.12	
     4.95000	  164.500	 56.82	140.53	
     4.96000	  165.500	 56.99	140.47	
     4.97000	  164.500	 56.82	140.53	
     4.98000	  164.500	 56.55	140.44	
     4.99000	  164.500	 56.58	140.32	
     5.00000	  165.500	 56.60	140.35	
     5.01000	  165.000	 56.64	140.33	
     5.02000	  166.500	 56.02	139.89	
     5.03000	  168.000	 56.19	139.70	
     5.04000	  168.500	 56.42	139.72	
     5.05000	  169.500	 56.50	139.60	
     5.06000	  171.000	 57.89	140.12	
     5.07000	  174.500	 58.24	139.47	
     5.08000	  176.000	 58.35	139.43	
     5.09000	  176.000	 58.58	139.46	
     5.10000	  177.000	 58.73	139.55	
     5.11000	  177.000	 58.87	139.52	
     5.12000	  183.500	 59.22	137.45	
     5.13000	  183.500	 58.65	137.92	
     5.14000	  186.000	 59.25	136.37	
     5.15000	  188.500	 59.16	135.05	
     5.16000	  193.000	 59.38	133.70	
     5.17000	  199.000	 59.17	131.48	
     5.18000	  203.000	 59.16	130.81	
     5.19000	  203.000	 58.89	130.27	
     5.20000	  203.500	 59.64	129.79	
     5.21000	  204.500	 59.82	125.71	
     5.22000	   78.500	 66.34	 91.62	
     5.23000	   80.500	 66.18	 90.90	
     5.24000	   89.500	 65.00	 86.56	
     5.25000	   92.500	 64.73	 86.73	
     5.26000	   95.000	 64.53	 86.84	
     5.27000	  103.000	 64.08	 85.63	
     5.28000	  107.500	 63.74	 85.51	
     5.29000	  108.500	 64.17	 87.49	
     5.30000	  110.500	 63.91	 87.26	
     5.31000	  117.000	 63.76	 87.39	
     5.32000	  124.000	 63.47	 86.37	
     5.33000	  127.500	 63.39	 86.33	
     5.34000	  130.500	 63.97	 87.07	
     5.35000	  132.500	 64.28	 87.60	
     5.36000	  134.000	 64.63	 88.21	
     5.37000	  139.000	 64.93	 88.74	
     5.38000	  142.500	 64.68	 88.51	
     5.39000	  142.500	 64.65	 88.47	
     5.40000	  144.500	 64.52	 88.39	
     5.41000	  144.000	 64.55	 88.33	
     5.42000	  147.000	 64.52	 88.47	
     5.43000	  148.500	 64.70	 88.50	
     5.44000	  152.500	 64.70	 88.57	
     5.45000	  150.000	 64.60	 88.57	
     5.46000	  151.000	 64.77	 88.77	
     5.47000	  152.500	 64.54	 88.02	
     5.48000	  154.500	 64.87	 88.24	
     5.49000	  156.000	 64.81	 88.30	
     5.50000	  157.000	 65.06	 88.38	
     5.51000	  162.500	 65.09	 88.08	
     5.52000	  161.000	 65.40	 89.10	
     5.53000	  162.500	 65.55	 89.18	
     5.54000	  164.000	 65.49	 87.99	
     5.55000	  169.500	 65.59	 88.24	
     5.56000	  170.500	 65.70	 88.43	
     5.57000	  263.000	 62.83	107.98	
     5.58000	  173.500	 65.52	 88.23	
     5.59000	  176.000	 65.03	 87.13	
     5.60000	  171.500	 65.29	 87.97	
     5.61000	  306.500	 61.75	111.69	
     5.62000	  324.000	 61.20	113.40	
     5.63000	  327.500	 61.24	113.15	
     5.64000	  181.500	 64.94	 87.15	
     5.65000	  182.500	 64.92	 87.11	
     5.66000	  187.000	 64.81	 87.03	
     5.67000	  330.000	 61.15	111.30	
     5.68000	  334.000	 60.78	111.20	
     5.69000	  340.500	 60.59	111.06	
     5.70000	  340.000	 60.50	111.03	
     5.71000	  339.000	 60.32	111.02	
     5.72000	  338.500	 60.36	111.31	
     5.73000	  340.000	 60.38	111.09	
     5.74000	  338.000	 60.43	111.15	
     5.75000	  339.000	 60.31	111.06	
     5.76000	  343.000	 60.22	110.64	
     5.77000	  344.000	 60.36	110.80	
     5.78000	  343.000	 60.45	111.03	
     5.79000	  346.500	 60.34	110.64	
     5.80000	  347.500	 60.58	110.84	
     5.81000	  349.500	 60.36	110.46	
     5.82000	  349.500	 60.39	110.31	
     5.83000	  350.500	 60.51	110.51	
     5.84000	  348.500	 60.70	110.98	
     5.85000	  349.000	 60.69	110.87	
     5.86000	  351.000	 60.56	110.71	
     5.87000	  352.000	 60.50	110.48	
     5.88000	  353.500	 60.49	110.37	
     5.89000	  351.500	 60.52	110.59	
     5.90000	  354.500	 60.40	110.30	
     5.91000	  354.500	 60.44	110.29	
     5.92000	  355.500	 60.40	110.20	
     5.93000	  355.500	 60.30	110.08	
     5.94000	  356.500	 60.20	109.71	
     5.95000	  356.500	 60.16	109.78	
     5.96000	  357.500	 60.20	109.85	
     5.97000	  356.500	 60.15	109.81	
     5.98000	  356.000	 59.93	109.71	
     5.99000	  355.000	 59.93	109.56	
     6.00000	  355.000	 59.94	109.69	
     6.01000	  354.000	 59.89	109.68	
     6.02000	  354.000	 59.90	109.77	
     6.03000	  353.000	 59.82	109.69	
     6.04000	  353.500	 59.82	109.60	
     6.05000	  356.500	 59.77	109.33	
     6.06000	  358.000	 59.66	109.23	
     6.07000	  364.500	 59.60	109.14	
     6.08000	  363.000	 59.49	108.84	
     6.09000	  362.000	 59.85	109.12	
     6.10000	  367.500	 59.54	108.89	
     6.11000	  368.500	 59.48	108.70	
     6.12000	  368.500	 59.46	108.72	
     6.13000	  368.500	 59.50	108.93	
     6.14000	  369.000	 59.49	108.79	
     6.15000	  370.500	 59.52	108.78	
     6.16000	  368.500	 59.52	108.92	
     6.17000	  367.000	 59.48	108.72	
     6.18000	  367.500	 59.56	109.04	
     6.19000	  372.000	 59.50	108.64	
     6.20000	  371.500	 59.54	108.63	
     6.21000	  374.500	 59.61	108.63	
     6.22000	  376.500	 59.70	108.52	
     6.23000	  380.000	 59.88	108.63	
     6.24000	  381.500	 59.89	108.59	
     6.25000	  383.500	 59.85	108.30	
     6.26000	  386.000	 60.12	107.93	
     6.27000	  391.000	 60.04	108.09	
     6.28000	  396.500	 59.88	107.55	
     6.29000	  396.500	 60.28	107.52	
     6.30000	  402.000	 60.16	107.55	
     6.31000	  401.500	 60.17	107.63	
     6.32000	  400.500	 60.27	107.91	
     6.33000	  398.500	 60.51	107.92	
     6.34000	  400.000	 60.51	108.20	
     6.35000	  397.500	 60.64	108.72	
     6.36000	  393.000	 60.83	109.33	
     6.37000	  388.000	 61.04	109.42	
     6.38000	  377.500	 61.16	110.48	
     6.39000	  372.500	 60.60	110.38	
     6.40000	  357.000	 60.83	111.62	
     6.41000	  346.500	 60.38	112.19	
     6.42000	  330.500	 60.40	113.70	
     6.43000	  318.000	 59.75	114.17	
     6.44000	  300.500	 59.51	116.16	
     6.45000	  284.500	 59.29	118.27	
     6.46000	  264.000	 58.83	120.57	
     6.47000	  252.000	 58.75	122.80	
     6.48000	  246.500	 58.57	122.93	
     6.49000	  245.000	 58.47	123.33	
     6.50000	  246.500	 58.23	121.96	
     6.51000	  260.000	 57.58	118.29	
     6.52000	  298.000	 57.63	111.29	
     6.53000	  361.000	 58.09	104.02	
     6.54000	  444.000	 58.27	 98.09	
     6.55000	  588.000	 58.59	 92.09	
     6.56000	  798.000	 58.92	 87.22	
     6.57000	 1017.500	 58.85	 85.01	
     6.58000	 1181.500	 59.19	 85.14	
     6.59000	 1320.000	 59.20	 84.45	
     6.60000	 1400.000	 59.44	 84.83	
     6.61000	 1428.000	 59.72	 85.65	
     6.62000	 1412.500	 59.87	 86.41	
     6.63000	 1357.500	 59.85	 86.85	
     6.64000	 1274.000	 59.75	 87.17	
     6.65000	 1161.000	 59.78	 87.74	
     6.66000	 1050.000	 59.90	 88.64	
     6.67000	  938.500	 59.93	 89.62	
     6.68000	  843.500	 60.06	 90.74	
     6.69000	  775.500	 60.31	 92.06	
     6.70000	  718.000	 60.63	 93.83	
     6.71000	  669.500	 61.06	 95.82	
     6.72000	  631.000	 61.26	 97.48	
     6.73000	  588.000	 61.28	 98.61	
     6.74000	  547.000	 61.36	100.39	
     6.75000	  511.500	 61.15	101.70	
     6.76000	  482.000	 61.02	103.15	
     6.77000	  454.000	 60.90	104.86	
     6.78000	  426.500	 60.50	107.10	
     6.79000	  399.500	 60.37	109.17	
     6.80000	  374.500	 60.14	110.78	
     6.81000	  343.000	 60.00	113.47	
     6.82000	  319.500	 59.90	115.70	
     6.83000	  299.000	 60.60	118.70	
     6.84000	  282.000	 60.76	120.85	
     6.85000	  269.000	 60.11	122.53	
     6.86000	  258.500	 59.95	123.88	
     6.87000	  246.000	 59.45	125.04	
     6.88000	  234.500	 59.31	127.41	
     6.89000	  223.500	 59.03	128.24	
     6.90000	  212.500	 58.84	130.72	
     6.91000	  201.500	 58.90	132.82	
     6.92000	  189.500	 58.03	134.92	
     6.93000	  175.000	 58.43	139.77	
     6.94000	  164.500	 58.01	142.23	
     6.95000	  158.000	 57.59	143.35	
     6.96000	  151.500	 56.58	143.94	
     6.97000	  148.000	 55.61	144.32	
     6.98000	  142.500	 55.28	145.00	
     6.99000	  141.500	 55.25	145.00	
     7.00000	  141.000	 55.35	145.00	
     7.01000	    0.000	  0.00	  0.00	
     7.02000	    0.000	  0.00	  0.00	
     7.03000	    0.000	  0.00	  0.00	
     7.04000	    0.000	  0.00	  0.00	
     7.05000	    0.000	  0.00	  0.00	
     7.06000	    0.000	  0.00	  0.00	
     7.07000	    0.000	  0.00	  0.00	
     7.08000	    0.000	  0.00	  0.00	
     7.09000	    0.000	  0.00	  0.00	
     7.10000	  139.500	 55.11	145.00	
     7.11000	    0.000	  0.00	  0.00	
     7.12000	  141.000	 54.96	145.00	
     7.13000	  140.500	 54.82	145.00	
     7.14000	    0.000	  0.00	  0.00	
     7.15000	    0.000	  0.00	  0.00	
     7.16000	    0.000	  0.00	  0.00	
     7.17000	   51.000	 62.55	145.00	
     7.18000	  139.500	 55.11	145.00	
     7.19000	  139.000	 55.11	145.00	
     7.20000	  140.500	 54.93	145.00	
     7.21000	  140.500	 54.93	145.00	
     7.22000	  140.500	 55.14	145.00	
     7.23000	    0.000	  0.00	  0.00	
     7.24000	    0.000	  0.00	  0.00	
     7.25000	    0.000	  0.00	  0.00	
     7.26000	  140.000	 55.00	145.00	
     7.27000	  140.500	 54.93	145.00	
     7.28000	  140.500	 54.93	145.00	
     7.29000	  140.000	 55.00	145.00	
     7.30000	  140.500	 54.93	145.00	
     7.31000	  140.500	 54.93	145.00	
     7.32000	  140.000	 55.00	145.00	
     7.33000	  140.000	 55.11	145.00	
     7.34000	  140.500	 54.93	145.00	
     7.35000	  140.500	 54.93	145.00	
     7.36000	  140.000	 55.11	145.00	
     7.37000	  140.500	 54.93	145.00	
     7.38000	  140.500	 54.93	145.00	
     7.39000	  140.500	 55.14	145.00	
     7.40000	  141.000	 55.07	145.00	
     7.41000	  140.000	 55.11	145.00	
     7.42000	  140.000	 55.11	145.00	
     7.43000	  140.000	 55.11	145.00	
     7.44000	  140.500	 55.25	145.00	
     7.45000	  141.000	 54.89	145.00	
     7.46000	  140.000	 55.11	145.00	
     7.47000	  141.000	 55.07	145.00	
     7.48000	  140.500	 54.93	145.00	
     7.49000	  140.000	 55.11	145.00	
     7.50000	  140.500	 54.93	145.00	
     7.51000	  139.500	 55.18	145.00	
     7.52000	  140.000	 55.11	145.00	
     7.53000	  139.500	 55.18	145.00	
     7.54000	  140.000	 55.11	145.00	
     7.55000	  140.500	 54.93	145.00	
     7.56000	  140.000	 55.11	145.00	
     7.57000	  140.500	 55.07	145.00	
     7.58000	  141.000	 55.07	145.00	
     7.59000	  139.500	 55.18	145.00	
     7.60000	  140.500	 54.93	145.00	
     7.61000	  141.000	 55.07	145.00	
     7.62000	  140.000	 55.11	145.00	
     7.63000	  140.000	 55.11	145.00	
     7.64000	  141.000	 54.89	145.00	
     7.65000	  140.500	 54.93	145.00	
     7.66000	  140.500	 54.93	145.00	
     7.67000	  140.500	 54.93	145.00	
     7.68000	  140.000	 55.11	145.00	
     7.69000	  141.000	 55.07	145.00	
     7.70000	  140.500	 55.25	145.00	
     7.71000	  140.500	 55.07	145.00	
     7.72000	  140.500	 54.93	145.00	
     7.73000	  140.500	 54.93	145.00	
     7.74000	  140.500	 54.93	145.00	
     7.75000	  140.500	 54.93	145.00	
     7.76000	  140.000	 55.11	145.00	
     7.77000	  140.000	 55.11	145.00	
     7.78000	  140.000	 55.11	145.00	
     7.79000	  140.000	 55.11	145.00	
     7.80000	  140.500	 54.93	145.00	
     7.81000	  140.500	 55.14	145.00	
     7.82000	  140.000	 55.11	145.00	
     7.83000	  140.000	 55.00	145.00	
     7.84000	  140.500	 54.93	145.00	
     7.85000	  140.500	 54.93	145.00	
     7.86000	  140.500	 54.93	145.00	
     7.87000	  140.500	 54.93	145.00	
     7.88000	  140.000	 55.11	145.00	
     7.89000	  140.000	 55.11	145.00	
     7.90000	  140.500	 54.93	145.00	
     7.91000	  141.000	 54.89	145.00	
     7.92000	  140.000	 55.11	145.00	
     7.93000	  140.000	 55.11	145.00	
     7.94000	  140.500	 54.93	145.00	
     7.95000	  140.500	 55.14	145.00	
     7.96000	  140.000	 55.11	145.00	
     7.97000	  140.500	 54.93	145.00	
     7.98000	  140.000	 55.00	145.00	
     7.99000	  140.500	 54.93	145.00	
     8.00000	  141.000	 54.89	145.00	
     8.01000	  140.500	 54.93	145.00	
     8.02000	  140.500	 54.93	145.00	
